key_filler.keys,key_filler.rt,key_resp_5.keys,key_resp_5.rt,key_resp_4.keys,key_resp_4.corr,key_resp_4.rt,trials_2.thisRepN,trials_2.thisTrialN,trials_2.thisN,trials_2.thisIndex,trials_2.ran,word,color,CorrAns,participant,session,date,expName,psychopyVersion,OS,frameRate,key_resp_3.keys,key_resp_3.rt
return,16.222,return,88.123,right,1,5.435,0,0,0,23,1,blue,yellow,right,Lauren and kate,001,2020-10-05_11h49.37.350,psych53,2020.2.2,MacIntel,60,,
,,,,down,1,2.399,0,1,1,9,1,yellow,green,down,Lauren and kate,001,2020-10-05_11h49.37.350,psych53,2020.2.2,MacIntel,60,,
,,,,right,1,1.623,0,2,2,22,1,red,yellow,right,Lauren and kate,001,2020-10-05_11h49.37.350,psych53,2020.2.2,MacIntel,60,,
,,,,right,1,0.799,0,3,3,19,1,green,yellow,right,Lauren and kate,001,2020-10-05_11h49.37.350,psych53,2020.2.2,MacIntel,60,,
,,,,left,1,2.101,0,4,4,0,1,red,blue,left,Lauren and kate,001,2020-10-05_11h49.37.350,psych53,2020.2.2,MacIntel,60,,
,,,,down,1,1.609,0,5,5,7,1,green,green,down,Lauren and kate,001,2020-10-05_11h49.37.350,psych53,2020.2.2,MacIntel,60,,
,,,,down,1,0.683,0,6,6,6,1,red,green,down,Lauren and kate,001,2020-10-05_11h49.37.350,psych53,2020.2.2,MacIntel,60,,
,,,,up,1,1.301,0,7,7,16,1,red,red,up,Lauren and kate,001,2020-10-05_11h49.37.350,psych53,2020.2.2,MacIntel,60,,
,,,,down,1,0.585,0,8,8,8,1,blue,green,down,Lauren and kate,001,2020-10-05_11h49.37.350,psych53,2020.2.2,MacIntel,60,,
,,,,down,1,0.851,0,9,9,10,1,red,green,down,Lauren and kate,001,2020-10-05_11h49.37.350,psych53,2020.2.2,MacIntel,60,,
,,,,up,1,0.625,0,10,10,15,1,yellow,red,up,Lauren and kate,001,2020-10-05_11h49.37.350,psych53,2020.2.2,MacIntel,60,,
,,,,right,1,2.117,0,11,11,20,1,blue,yellow,right,Lauren and kate,001,2020-10-05_11h49.37.350,psych53,2020.2.2,MacIntel,60,,
,,,,right,1,0.426,0,12,12,21,1,yellow,yellow,right,Lauren and kate,001,2020-10-05_11h49.37.350,psych53,2020.2.2,MacIntel,60,,
,,,,right,1,0.551,0,13,13,18,1,red,yellow,right,Lauren and kate,001,2020-10-05_11h49.37.350,psych53,2020.2.2,MacIntel,60,,
,,,,up,1,1.734,0,14,14,12,1,red,red,up,Lauren and kate,001,2020-10-05_11h49.37.350,psych53,2020.2.2,MacIntel,60,,
,,,,up,1,0.666,0,15,15,13,1,green,red,up,Lauren and kate,001,2020-10-05_11h49.37.350,psych53,2020.2.2,MacIntel,60,,
,,,,left,1,0.683,0,16,16,5,1,blue,blue,left,Lauren and kate,001,2020-10-05_11h49.37.350,psych53,2020.2.2,MacIntel,60,,
,,,,up,1,2.54,0,17,17,17,1,blue,red,up,Lauren and kate,001,2020-10-05_11h49.37.350,psych53,2020.2.2,MacIntel,60,,
,,,,left,1,1,0,18,18,1,1,green,blue,left,Lauren and kate,001,2020-10-05_11h49.37.350,psych53,2020.2.2,MacIntel,60,,
,,,,left,1,0.474,0,19,19,3,1,yellow,blue,left,Lauren and kate,001,2020-10-05_11h49.37.350,psych53,2020.2.2,MacIntel,60,,
,,,,left,1,0.458,0,20,20,2,1,blue,blue,left,Lauren and kate,001,2020-10-05_11h49.37.350,psych53,2020.2.2,MacIntel,60,,
,,,,left,1,0.435,0,21,21,4,1,red,blue,left,Lauren and kate,001,2020-10-05_11h49.37.350,psych53,2020.2.2,MacIntel,60,,
,,,,up,1,1.904,0,22,22,14,1,blue,red,up,Lauren and kate,001,2020-10-05_11h49.37.350,psych53,2020.2.2,MacIntel,60,,
,,,,down,1,0.866,0,23,23,11,1,blue,green,down,Lauren and kate,001,2020-10-05_11h49.37.350,psych53,2020.2.2,MacIntel,60,,
,,,,left,1,0.902,1,0,24,5,1,blue,blue,left,Lauren and kate,001,2020-10-05_11h49.37.350,psych53,2020.2.2,MacIntel,60,,
,,,,left,1,0.441,1,1,25,1,1,green,blue,left,Lauren and kate,001,2020-10-05_11h49.37.350,psych53,2020.2.2,MacIntel,60,,
,,,,down,1,1.398,1,2,26,8,1,blue,green,down,Lauren and kate,001,2020-10-05_11h49.37.350,psych53,2020.2.2,MacIntel,60,,
,,,,down,1,0.333,1,3,27,11,1,blue,green,down,Lauren and kate,001,2020-10-05_11h49.37.350,psych53,2020.2.2,MacIntel,60,,
,,,,down,1,0.322,1,4,28,10,1,red,green,down,Lauren and kate,001,2020-10-05_11h49.37.350,psych53,2020.2.2,MacIntel,60,,
,,,,down,1,0.372,1,5,29,6,1,red,green,down,Lauren and kate,001,2020-10-05_11h49.37.350,psych53,2020.2.2,MacIntel,60,,
,,,,right,1,0.941,1,6,30,19,1,green,yellow,right,Lauren and kate,001,2020-10-05_11h49.37.350,psych53,2020.2.2,MacIntel,60,,
,,,,left,1,2.177,1,7,31,3,1,yellow,blue,left,Lauren and kate,001,2020-10-05_11h49.37.350,psych53,2020.2.2,MacIntel,60,,
,,,,up,1,0.777,1,8,32,16,1,red,red,up,Lauren and kate,001,2020-10-05_11h49.37.350,psych53,2020.2.2,MacIntel,60,,
,,,,right,1,1.693,1,9,33,18,1,red,yellow,right,Lauren and kate,001,2020-10-05_11h49.37.350,psych53,2020.2.2,MacIntel,60,,
,,,,up,1,1.234,1,10,34,17,1,blue,red,up,Lauren and kate,001,2020-10-05_11h49.37.350,psych53,2020.2.2,MacIntel,60,,
,,,,right,1,1.502,1,11,35,20,1,blue,yellow,right,Lauren and kate,001,2020-10-05_11h49.37.350,psych53,2020.2.2,MacIntel,60,,
,,,,down,0,1.875,1,12,36,2,1,blue,blue,left,Lauren and kate,001,2020-10-05_11h49.37.350,psych53,2020.2.2,MacIntel,60,,
,,,,up,1,2.852,1,13,37,15,1,yellow,red,up,Lauren and kate,001,2020-10-05_11h49.37.350,psych53,2020.2.2,MacIntel,60,,
,,,,right,1,1.85,1,14,38,23,1,blue,yellow,right,Lauren and kate,001,2020-10-05_11h49.37.350,psych53,2020.2.2,MacIntel,60,,
,,,,up,1,1.184,1,15,39,14,1,blue,red,up,Lauren and kate,001,2020-10-05_11h49.37.350,psych53,2020.2.2,MacIntel,60,,
,,,,right,0,1.585,1,16,40,0,1,red,blue,left,Lauren and kate,001,2020-10-05_11h49.37.350,psych53,2020.2.2,MacIntel,60,,
,,,,up,1,3.26,1,17,41,12,1,red,red,up,Lauren and kate,001,2020-10-05_11h49.37.350,psych53,2020.2.2,MacIntel,60,,
,,,,up,1,0.533,1,18,42,13,1,green,red,up,Lauren and kate,001,2020-10-05_11h49.37.350,psych53,2020.2.2,MacIntel,60,,
,,,,right,1,1.685,1,19,43,21,1,yellow,yellow,right,Lauren and kate,001,2020-10-05_11h49.37.350,psych53,2020.2.2,MacIntel,60,,
,,,,down,1,1.833,1,20,44,7,1,green,green,down,Lauren and kate,001,2020-10-05_11h49.37.350,psych53,2020.2.2,MacIntel,60,,
,,,,left,1,1.367,1,21,45,4,1,red,blue,left,Lauren and kate,001,2020-10-05_11h49.37.350,psych53,2020.2.2,MacIntel,60,,
,,,,down,1,1.168,1,22,46,9,1,yellow,green,down,Lauren and kate,001,2020-10-05_11h49.37.350,psych53,2020.2.2,MacIntel,60,,
,,,,right,1,1.672,1,23,47,22,1,red,yellow,right,Lauren and kate,001,2020-10-05_11h49.37.350,psych53,2020.2.2,MacIntel,60,,
,,,,,,,,,,,,,,,Lauren and kate,001,2020-10-05_11h49.37.350,psych53,2020.2.2,MacIntel,60,return,1.6
