key_filler.keys,key_filler.rt,key_resp_5.keys,key_resp_5.rt,key_resp_4.keys,key_resp_4.corr,key_resp_4.rt,trials_2.thisRepN,trials_2.thisTrialN,trials_2.thisN,trials_2.thisIndex,trials_2.ran,word,color,CorrAns,participant,session,date,expName,psychopyVersion,OS,frameRate,key_resp_3.keys,key_resp_3.rt
return,4.067,space,53.78,down,1,3.752,0,0,0,8,1,blue,green,down,Simone,001,2020-10-05_11h49.36.711,psych53,2020.2.2,MacIntel,60,,
,,,,left,1,1.445,0,1,1,5,1,blue,blue,left,Simone,001,2020-10-05_11h49.36.711,psych53,2020.2.2,MacIntel,60,,
,,,,up,0,1.215,0,2,2,4,1,red,blue,left,Simone,001,2020-10-05_11h49.36.711,psych53,2020.2.2,MacIntel,60,,
,,,,right,1,1.157,0,3,3,22,1,red,yellow,right,Simone,001,2020-10-05_11h49.36.711,psych53,2020.2.2,MacIntel,60,,
,,,,up,1,1.296,0,4,4,16,1,red,red,up,Simone,001,2020-10-05_11h49.36.711,psych53,2020.2.2,MacIntel,60,,
,,,,up,1,1.344,0,5,5,17,1,blue,red,up,Simone,001,2020-10-05_11h49.36.711,psych53,2020.2.2,MacIntel,60,,
,,,,right,1,1.336,0,6,6,18,1,red,yellow,right,Simone,001,2020-10-05_11h49.36.711,psych53,2020.2.2,MacIntel,60,,
,,,,right,1,0.759,0,7,7,23,1,blue,yellow,right,Simone,001,2020-10-05_11h49.36.711,psych53,2020.2.2,MacIntel,60,,
,,,,down,1,0.534,0,8,8,6,1,red,green,down,Simone,001,2020-10-05_11h49.36.711,psych53,2020.2.2,MacIntel,60,,
,,,,left,1,0.817,0,9,9,1,1,green,blue,left,Simone,001,2020-10-05_11h49.36.711,psych53,2020.2.2,MacIntel,60,,
,,,,down,1,0.603,0,10,10,7,1,green,green,down,Simone,001,2020-10-05_11h49.36.711,psych53,2020.2.2,MacIntel,60,,
,,,,up,1,0.601,0,11,11,15,1,yellow,red,up,Simone,001,2020-10-05_11h49.36.711,psych53,2020.2.2,MacIntel,60,,
,,,,down,1,0.868,0,12,12,9,1,yellow,green,down,Simone,001,2020-10-05_11h49.36.711,psych53,2020.2.2,MacIntel,60,,
,,,,left,1,0.846,0,13,13,2,1,blue,blue,left,Simone,001,2020-10-05_11h49.36.711,psych53,2020.2.2,MacIntel,60,,
,,,,up,1,0.694,0,14,14,14,1,blue,red,up,Simone,001,2020-10-05_11h49.36.711,psych53,2020.2.2,MacIntel,60,,
,,,,up,1,0.569,0,15,15,12,1,red,red,up,Simone,001,2020-10-05_11h49.36.711,psych53,2020.2.2,MacIntel,60,,
,,,,right,1,0.677,0,16,16,19,1,green,yellow,right,Simone,001,2020-10-05_11h49.36.711,psych53,2020.2.2,MacIntel,60,,
,,,,left,1,1.225,0,17,17,0,1,red,blue,left,Simone,001,2020-10-05_11h49.36.711,psych53,2020.2.2,MacIntel,60,,
,,,,up,1,1.204,0,18,18,13,1,green,red,up,Simone,001,2020-10-05_11h49.36.711,psych53,2020.2.2,MacIntel,60,,
,,,,right,1,1.118,0,19,19,20,1,blue,yellow,right,Simone,001,2020-10-05_11h49.36.711,psych53,2020.2.2,MacIntel,60,,
,,,,right,1,0.538,0,20,20,21,1,yellow,yellow,right,Simone,001,2020-10-05_11h49.36.711,psych53,2020.2.2,MacIntel,60,,
,,,,down,1,0.768,0,21,21,10,1,red,green,down,Simone,001,2020-10-05_11h49.36.711,psych53,2020.2.2,MacIntel,60,,
,,,,left,0,0.562,0,22,22,11,1,blue,green,down,Simone,001,2020-10-05_11h49.36.711,psych53,2020.2.2,MacIntel,60,,
,,,,left,1,1.285,0,23,23,3,1,yellow,blue,left,Simone,001,2020-10-05_11h49.36.711,psych53,2020.2.2,MacIntel,60,,
,,,,left,1,1.444,1,0,24,1,1,green,blue,left,Simone,001,2020-10-05_11h49.36.711,psych53,2020.2.2,MacIntel,60,,
,,,,down,1,1.429,1,1,25,10,1,red,green,down,Simone,001,2020-10-05_11h49.36.711,psych53,2020.2.2,MacIntel,60,,
,,,,right,1,0.944,1,2,26,18,1,red,yellow,right,Simone,001,2020-10-05_11h49.36.711,psych53,2020.2.2,MacIntel,60,,
,,,,down,1,0.931,1,3,27,8,1,blue,green,down,Simone,001,2020-10-05_11h49.36.711,psych53,2020.2.2,MacIntel,60,,
,,,,down,1,1.267,1,4,28,9,1,yellow,green,down,Simone,001,2020-10-05_11h49.36.711,psych53,2020.2.2,MacIntel,60,,
,,,,down,1,0.352,1,5,29,6,1,red,green,down,Simone,001,2020-10-05_11h49.36.711,psych53,2020.2.2,MacIntel,60,,
,,,,left,1,0.843,1,6,30,3,1,yellow,blue,left,Simone,001,2020-10-05_11h49.36.711,psych53,2020.2.2,MacIntel,60,,
,,,,right,1,0.88,1,7,31,23,1,blue,yellow,right,Simone,001,2020-10-05_11h49.36.711,psych53,2020.2.2,MacIntel,60,,
,,,,up,1,0.802,1,8,32,13,1,green,red,up,Simone,001,2020-10-05_11h49.36.711,psych53,2020.2.2,MacIntel,60,,
,,,,down,1,0.768,1,9,33,7,1,green,green,down,Simone,001,2020-10-05_11h49.36.711,psych53,2020.2.2,MacIntel,60,,
,,,,left,1,1.068,1,10,34,2,1,blue,blue,left,Simone,001,2020-10-05_11h49.36.711,psych53,2020.2.2,MacIntel,60,,
,,,,up,1,0.671,1,11,35,16,1,red,red,up,Simone,001,2020-10-05_11h49.36.711,psych53,2020.2.2,MacIntel,60,,
,,,,down,1,1.171,1,12,36,11,1,blue,green,down,Simone,001,2020-10-05_11h49.36.711,psych53,2020.2.2,MacIntel,60,,
,,,,up,1,0.572,1,13,37,12,1,red,red,up,Simone,001,2020-10-05_11h49.36.711,psych53,2020.2.2,MacIntel,60,,
,,,,up,1,0.952,1,14,38,15,1,yellow,red,up,Simone,001,2020-10-05_11h49.36.711,psych53,2020.2.2,MacIntel,60,,
,,,,right,1,1.042,1,15,39,22,1,red,yellow,right,Simone,001,2020-10-05_11h49.36.711,psych53,2020.2.2,MacIntel,60,,
,,,,left,1,0.699,1,16,40,4,1,red,blue,left,Simone,001,2020-10-05_11h49.36.711,psych53,2020.2.2,MacIntel,60,,
,,,,left,1,0.465,1,17,41,5,1,blue,blue,left,Simone,001,2020-10-05_11h49.36.711,psych53,2020.2.2,MacIntel,60,,
,,,,right,1,0.628,1,18,42,20,1,blue,yellow,right,Simone,001,2020-10-05_11h49.36.711,psych53,2020.2.2,MacIntel,60,,
,,,,left,1,0.629,1,19,43,0,1,red,blue,left,Simone,001,2020-10-05_11h49.36.711,psych53,2020.2.2,MacIntel,60,,
,,,,right,1,0.934,1,20,44,21,1,yellow,yellow,right,Simone,001,2020-10-05_11h49.36.711,psych53,2020.2.2,MacIntel,60,,
,,,,up,1,0.723,1,21,45,14,1,blue,red,up,Simone,001,2020-10-05_11h49.36.711,psych53,2020.2.2,MacIntel,60,,
,,,,right,1,1.568,1,22,46,19,1,green,yellow,right,Simone,001,2020-10-05_11h49.36.711,psych53,2020.2.2,MacIntel,60,,
,,,,up,1,0.886,1,23,47,17,1,blue,red,up,Simone,001,2020-10-05_11h49.36.711,psych53,2020.2.2,MacIntel,60,,
,,,,,,,,,,,,,,,Simone,001,2020-10-05_11h49.36.711,psych53,2020.2.2,MacIntel,60,return,3.819
